{
  "resourceType": "Parameters",
  "id": "323822c7-0d64-64e1-d241-99ea436c793f",
  "parameter": [
    {
      "name": "measure-report",
      "resource": {
        "resourceType": "MeasureReport",
        "meta": {
          "profile": [
            "http://hl7.org/fhir/us/davinci-deqm/STU3/StructureDefinition/measurereport-deqm"
          ]
        },
        "id": "2cc0d6dc-3777-590f-3880-1f3e6c57dc20",
        "status": "complete",
        "type": "individual",
        "measure": {
          "reference": "https://ncqa.org/fhir/ig/Measure/measure-mrp"
        },
        "patient": {
          "reference": "Patient/patient01"
        },
        "date": "2018-09-29T20:02:16.004Z",
        "period": {
          "start": "2018-09-29T20:02:16.004Z",
          "end": "2018-09-29T20:02:16.004Z"
        },
        "reportingOrganization": "Organization/organization01",
        "evaluatedResources": {
          "extension": [
            {
              "url": "http://hl7.org/fhir/ig/davinci/StructureDefinition/extension-referenceAny",
              "valueReference": {
                "reference": "Task/a1640c55-655f-8b3d-4f55-55a1f73a9919"
              }
            }
          ]
        }
      }
    },
    {
      "name": "resource",
      "resource": {
        "resourceType": "Task",
        "meta": {
          "profile": [
            "http://hl7.org/fhir/us/hedis/StructureDefinition/hedis-task"
          ]
        },
        "id": "a1640c55-655f-8b3d-4f55-55a1f73a9919",
        "status": "completed",
        "intent": "plan",
        "priority": "routine",
        "code": {
          "coding": [
            {
              "system": "http://www.ama-assn.org/go/cpt",
              "code": "1111F",
              "display": "Medication Reconciliation"
            }
          ]
        },
        "for": {
          "reference": "Patient/patient01"
        },
        "context": {
          "reference": "Encounter/4af297dd-b5b2-6ea0-9836-fc35107a5032"
        },
        "authoredOn": "2018-09-29T20:02:16.004Z",
        "executionPeriod": {
          "start": "2018-09-29T20:02:16.004Z",
          "end": "2018-09-29T20:02:16.004Z"
        },
        "owner": {
          "reference": "Practitioner/practitioner01"
        }
      }
    },
    {
      "name": "resource",
      "resource": {
        "resourceType": "Patient",
        "id": "patient01",
        "meta": {
          "versionId": "2",
          "lastUpdated": "2018-09-29T13:52:27.000+00:00",
          "profile": [
            "http://hl7.org/fhir/us/qicore/StructureDefinition/qicore-patient"
          ]
        },
        "text": {
          "status": "generated",
          "div": "<div xmlns=\"http://www.w3.org/1999/xhtml\"><div class=\"hapiHeaderText\">Jairo <b>WEBSTER </b></div><table class=\"hapiPropertyTable\"><tbody><tr><td>Identifier</td><td>12345</td></tr><tr><td>Address</td><td><span>7496 Beaver Ridge Ave </span><br/><span>Thornton </span><span>NJ </span><span>USA </span></td></tr><tr><td>Date of birth</td><td><span>16 December 1946</span></td></tr></tbody></table></div>"
        },
        "extension": [
          {
            "url": "http://hl7.org/fhir/us/core/StructureDefinition/us-core-birthsex",
            "valueCode" : "M"
          },
          {
            "url": "http://hl7.org/fhir/us/core/StructureDefinition/us-core-race",
            "extension" : [
              {
                "url" : "ombCategory",
                "valueCoding" : {
                  "system" : "urn:oid:2.16.840.1.113883.6.238",
                  "code" : "2106-3",
                  "display" : "White"
                }
              }
            ]
          },
          {
            "url": "http://hl7.org/fhir/us/core/StructureDefinition/us-core-ethnicity",
            "extension" : [
              {
                "url" : "ombCategory",
                "valueCoding" : {
                  "system" : "urn:oid:2.16.840.1.113883.6.238",
                  "code" : "2186-5",
                  "display" : "Not Hispanic or Latino"
                }
              }
            ]
          }
        ],
        "identifier": [
          {
            "use": "usual",
            "type": {
              "coding": [
                {
                  "system": "http://hl7.org/fhir/v2/0203",
                  "code": "MR",
                  "display": "Medical record number"
                }
              ]
            },
            "system": "http://hospital.davinci.org",
            "value": "12345"
          }
        ],
        "active": true,
        "name": [
          {
            "use": "official",
            "family": "Webster",
            "given": [
              "Jairo"
            ]
          }
        ],
        "gender": "male",
        "birthDate": "1946-12-16",
        "deceasedBoolean": false,
        "address": [
          {
            "use": "home",
            "line": [
              "7496 Beaver Ridge Ave"
            ],
            "city": "Thornton",
            "state": "NJ",
            "postalCode": "07003",
            "country": "USA"
          }
        ],
        "maritalStatus": {
          "coding": [
            {
              "system": "http://hl7.org/fhir/v3/MaritalStatus",
              "code": "M",
              "display": "Married"
            }
          ]
        },
        "communication": [
          {
            "language": {
              "coding": [
                {
                  "system": "urn:ietf:bcp:47",
                  "code": "en-US",
                  "display": "US English"
                }
              ]
            },
            "preferred": true
          }
        ],
        "managingOrganization": "Organization/organization01"
      }
    },
    {
      "name": "resource",
      "resource": {
        "resourceType": "Location",
        "id": "location01",
        "meta": {
          "versionId": "2",
          "lastUpdated": "2018-09-29T13:52:27.000+00:00",
          "profile": [
            "http://hl7.org/fhir/us/qicore/StructureDefinition/qicore-location"
          ]
        },
        "name": "DaVinciClinic01",
        "address": {
          "line": [
            "102 Heritage Dr."
          ],
          "city": "Somerset",
          "state": "NJ",
          "postalCode": "08873",
          "country": "USA"
        }
      }
    },
    {
      "name": "resource",
      "resource": {
        "resourceType": "Practitioner",
        "id": "practitioner01",
        "meta": {
          "versionId": "2",
          "lastUpdated": "2018-09-29T13:52:27.000+00:00",
          "profile": [
            "http://hl7.org/fhir/us/davinci-deqm/STU3/StructureDefinition/practitioner-deqm"
          ]
        },
        "identifier": [
          {
            "use": "official",
            "type": {
              "text": "NPI"
            },
            "system": "http://hl7.org/fhir/sid/us-npi",
            "value": "456789123"
          }
        ],
        "active": true,
        "name": [
          {
            "family": "Hale",
            "given": [
              "Cody"
            ],
            "suffix": [
              "MD"
            ]
          }
        ],
        "gender": "male"
      }
    },
    {
      "name": "resource",
      "resource": {
        "resourceType": "Organization",
        "id": "organization01",
        "meta": {
          "versionId": "2",
          "lastUpdated": "2018-09-29T13:52:27.000+00:00",
          "profile": [
            "http://hl7.org/fhir/us/davinci-deqm/STU3/StructureDefinition/organization-deqm"
          ]
        },
        "identifier": [
          {
            "use": "official",
            "system": "http://hl7.org/fhir/us/davinci-deqm/STU3/sid/us-tin",
            "value": "123456789",
            "assigner": {
              "display": "www.irs.gov"
            }
          }
        ],
        "active": true,
        "type": [
          {
            "coding": [
              {
                "system": "http://hl7.org/fhir/organization-type",
                "code": "prov",
                "display": "Healthcare Provider"
              }
            ]
          }
        ],
        "name": "DaVinciHospital01",
        "telecom": [
          {
            "system": "phone",
            "value": "(+1) 401-555-1212"
          }
        ],
        "address": [
          {
            "line": [
              "73 Lakewood Street"
            ],
            "city": "Warwick",
            "state": "RI",
            "postalCode": "02886",
            "country": "USA"
          }
        ]
      }
    },
    {
      "name": "resource",
      "resource": {
        "resourceType": "Encounter",
        "id": "4af297dd-b5b2-6ea0-9836-fc35107a5032",
        "meta": {
          "profile": [
            "http://hl7.org/fhir/us/qicore/StructureDefinition/qicore-encounter"
          ]
        },
        "status": "finished",
        "class": {
          "system": "http://hl7.org/fhir/v3/ActCode",
          "code": "AMB",
          "display": "ambulatory"
        },
        "type": [
          {
            "coding": [
              {
                "system": "http://snomed.info/sct",
                "code": "390906007",
                "display": "Follow-up encounter (procedure)"
              }
            ]
          }
        ],
        "period": {
          "start": "2018-09-29T20:02:16.004Z",
          "end": "2018-09-29T20:02:16.004Z"
        },
        "subject": {
          "reference": "Patient/patient01"
        },
        "location": {
          "reference": "Location/location01"
        },
        "participant": [
          {
            "individual": {
              "reference": "Practitioner/practitioner01"
            }
          }
        ],
        "serviceProvider": {
          "reference": "Organization/organization01"
        }
      }
    },
    {
      "name": "resource",
      "resource": {
        "resourceType": "Coverage",
        "id": "coverage01",
        "meta": {
          "versionId": "2",
          "lastUpdated": "2018-09-29T13:52:27.000+00:00",
          "profile": [
            "http://hl7.org/fhir/us/davinci-deqm/STU3/StructureDefinition/coverage-deqm"
          ]
        },
        "policyHolder": {
          "reference": "Patient/patient01"
        },
        "subscriber": {
          "reference": "Patient/patient01"
        },
        "subscriberId": "A123456789",
        "beneficiary": {
          "reference": "Patient/patient01"
        },
        "relationship": {
          "coding": [
            {
              "code": "self"
            }
          ]
        },
        "payor": [
          {
            "reference": "Organization/organization04"
          }
        ]
      }
    },
    {
      "name": "resource",
      "resource": {
        "resourceType": "Organization",
        "id": "organization04",
        "meta": {
          "versionId": "2",
          "lastUpdated": "2018-09-29T13:52:27.000+00:00",
          "profile": [
            "http://hl7.org/fhir/us/davinci-deqm/STU3/StructureDefinition/organization-deqm"
          ]
        },
        "identifier": [
          {
            "use": "official",
            "system": "http://hl7.org/fhir/us/davinci-deqm/STU3/sid/us-tin",
            "value": "456789123",
            "assigner": {
              "display": "www.irs.gov"
            }
          }
        ],
        "active": true,
        "type": [
          {
            "coding": [
              {
                "system": "http://hl7.org/fhir/organization-type",
                "code": "ins",
                "display": "Insurance Company"
              }
            ]
          }
        ],
        "name": "DVPayer04",
        "telecom": [
          {
            "system": "phone",
            "value": "(+1) 616-555-1212"
          }
        ],
        "address": [
          {
            "line": [
              "160 Glen Eagles Road"
            ],
            "city": "Grand Rapids",
            "state": "MI",
            "postalCode": "49503",
            "country": "USA"
          }
        ]
      }
    }
  ]
}